Time,gyro_x,gyro_y,gyro_z
1784516383806.767,0.0,0.0,0.0
1784516383907.236,-0.00077,0.01002,0.00775
1784516384007.5112,-0.00109,0.00973,0.008
1784516384107.1282,-0.00179,0.00579,0.01102
1784516384206.675,-0.00047,0.00847,0.00755
1784516384306.766,-0.00154,0.00715,0.00551
1784516384406.864,-0.00154,0.00889,0.01003
1784516384507.066,-0.00144,0.00781,0.0071
1784516384605.644,-0.00015,0.00781,0.00694
1784516384707.383,-0.00048,0.00845,0.00876
1784516384807.561,-0.00117,0.0063,0.00726
1784516384907.371,-0.00194,0.00996,0.00776
1784516385007.335,-0.00356,0.01049,0.00675
1784516385107.3542,-0.00237,0.00787,0.00817
1784516385212.0142,-0.00191,0.00567,0.00988
1784516385306.907,-0.00091,0.00979,0.00729
1784516385406.985,-0.00517,0.00631,0.00761
1784516385506.989,-0.00223,0.00804,0.00635
1784516385607.363,-0.00347,0.00841,0.00694
1784516385707.613,-0.00222,0.0073,0.00667
1784516385808.558,-0.00254,0.00731,0.00772
1784516385927.595,-0.00081,0.00673,0.00913
1784516386027.6348,-0.00246,0.00867,0.00693
1784516386127.48,-0.00063,0.0093,0.00737
1784516386227.1099,-0.00065,0.00691,0.0068
1784516386326.7998,-0.00183,0.00906,0.00654
1784516386426.812,-0.00191,0.00813,0.00693
1784516386547.5159,-0.00024,0.00663,0.0071
1784516386647.046,-0.00152,0.01142,0.00728
1784516386747.373,-0.00227,0.00609,0.00996
1784516386847.411,-0.00195,0.00451,0.00567
1784516386947.452,-0.00222,0.00728,0.00486
1784516387046.8691,-0.00162,0.0088,0.0087
1784516387146.668,-0.00345,0.00684,0.00897
1784516387246.99,-0.00043,0.00862,0.00817
1784516387347.544,-0.00291,0.00526,0.00372
1784516387447.135,-0.00056,0.00477,0.00754
1784516387547.3708,-0.00344,0.00635,0.00654
1784516387667.304,-0.0028,0.00814,0.00773
1784516387747.426,-0.00187,0.00971,0.00747
1784516387867.256,-0.00293,0.00825,0.00823
1784516387967.1191,-0.0014,0.00916,0.00865
1784516388067.529,-0.0022,0.00663,0.00702
1784516388166.921,-0.00244,0.00819,0.00657
1784516388266.977,-0.00247,0.00764,0.00784
1784516388369.868,-0.00408,0.00902,0.00544
1784516388467.319,-0.00368,0.00861,0.00735
1784516388587.3953,-0.00267,0.00992,0.00549
1784516388687.4958,-0.00073,0.00786,0.00593
1784516388787.143,-0.00077,0.00846,0.00801
1784516388887.913,-0.00121,0.00933,0.00875
1784516388987.202,-0.00236,0.0068,0.00588
1784516389087.486,-0.00216,0.00854,0.00739
1784516389186.635,-0.00438,0.00562,0.00381
1784516389286.898,-0.00393,0.00787,0.00822
1784516389408.946,0.00132,0.00788,0.00494
1784516389508.358,-0.00181,0.00583,0.00865
1784516389608.235,-0.00086,0.0066,0.00855
1784516389707.5042,-0.00176,0.00849,0.00678
1784516389807.938,-0.00516,0.00514,0.00712
1784516389907.491,-0.00161,0.00914,0.0069
1784516390007.4539,-0.00189,0.00873,0.00716
1784516390120.655,-0.0013,0.00812,0.00697
1784516390226.64,-0.00195,0.0085,0.00767
1784516390327.435,-0.00146,0.00723,0.0068
1784516390426.741,0.00018,0.00538,0.00734
1784516390526.72,-0.00098,0.00753,0.00442
1784516390627.214,0.00033,0.00793,0.00539
1784516390727.7498,-0.0006,0.00857,0.00799
1784516390827.8442,-0.00193,0.00542,0.00603
1784516390927.647,-0.004,0.00863,0.00723
1784516391027.018,-0.004,0.0087,0.0078
1784516391126.913,-0.00245,0.00874,0.00681
1784516391226.743,-0.00066,0.00887,0.00719
1784516391347.307,-0.0018,0.00735,0.00775
1784516391447.4722,-0.00191,0.00789,0.00775
1784516391547.323,-0.00081,0.00831,0.00765
1784516391646.9053,-0.00115,0.00684,0.00646
1784516391746.728,-0.00317,0.00762,0.00578
1784516391866.988,-0.00062,0.00695,0.00576
1784516391967.5168,0.00071,0.008,0.00467
1784516392067.5452,-0.00393,0.0057,0.00589
1784516392166.844,-0.00274,0.00626,0.0058
1784516392266.738,0.00053,0.00709,0.00806
1784516392366.9683,-0.00268,0.00791,0.00607
1784516392467.204,-0.00191,0.00586,0.00664
1784516392566.8708,-0.00353,0.00679,0.00874
1784516392666.898,-0.00139,0.00627,0.0077
1784516392786.8591,-0.00142,0.00803,0.00354
1784516392886.524,-0.002,0.00971,0.00514
1784516392987.724,-0.00127,0.00837,0.00605
1784516393087.862,-0.00489,0.01006,0.00487
1784516393187.64,-0.00098,0.00543,0.00632
1784516393287.843,0.00093,0.00843,0.00983
1784516393387.432,-0.00365,0.00791,0.00649
1784516393487.883,-0.00181,0.00834,0.00722
1784516393587.533,-0.00039,0.0067,0.0077
1784516393687.732,-0.0005,0.00804,0.00772
1784516393787.7878,-0.00039,0.00781,0.00724
1784516393887.807,-0.00188,0.00677,0.00616
1784516393988.4968,-0.00148,0.00803,0.00618
1784516394089.138,0.00108,0.0074,0.00776
1784516394187.666,-0.00196,0.00711,0.01033
1784516394287.7148,-0.00159,0.00779,0.00648
1784516394407.82,-0.00249,0.00674,0.00708
1784516394507.756,-0.00083,0.00686,0.00851
1784516394607.631,0.00117,0.00827,0.00733
1784516394708.4028,-0.00415,0.0063,0.00766
1784516394807.7812,-0.00231,0.00847,0.00834
1784516394907.727,-0.00069,0.00902,0.00575
1784516395007.8552,-0.00176,0.00792,0.00611
1784516395107.862,4e-05,0.00472,0.00684
1784516395207.636,-0.00202,0.0105,0.00533
1784516395307.583,-0.00137,0.00989,0.0077
1784516395407.923,-0.00173,0.00619,0.00649
1784516395508.547,-0.00156,0.0084,0.00613
1784516395607.9092,0.00051,0.00583,0.00842
1784516395707.597,-0.00318,0.00856,0.00552
1784516395807.74,-0.00169,0.00795,0.00767
1784516395928.072,-0.00138,0.00731,0.00798
1784516396028.5872,-0.001,0.00828,0.00704
1784516396127.906,-0.00101,0.00646,0.00627
1784516396227.711,-0.00305,0.0065,0.0091
1784516396327.9749,0.00162,0.00715,0.0081
1784516396428.585,-0.00178,0.00743,0.0071
1784516396528.81,-0.00036,0.00897,0.00588
1784516396629.9597,-0.00098,0.00871,0.00596
1784516396730.2651,-6e-05,0.00848,0.00531
1784516396830.038,-0.00061,0.0085,0.00557
1784516396933.967,-0.00116,0.00691,0.00704
1784516397034.494,-0.00035,0.00781,0.00624
1784516397129.5737,-0.00116,0.00742,0.00705
1784516397230.0771,-0.00111,0.00915,0.00678
1784516397329.8381,-0.00016,0.0074,0.00674
1784516397431.0232,-0.00101,0.00851,0.00766
1784516397530.3481,-0.0004,0.0097,0.0085
1784516397629.483,-0.00184,0.00647,0.00806
1784516397728.8801,0.0001,0.00687,0.00773
1784516397829.6,-0.00241,0.00787,0.00472
1784516397928.9182,0.00033,0.00683,0.00594
1784516398029.09,-0.00199,0.00828,0.00864
1784516398127.904,-0.00148,0.00706,0.00831
1784516398228.0378,-3e-05,0.00913,0.00412
1784516398327.774,-0.00361,0.0099,0.00821
1784516398427.141,-0.00018,0.00945,0.00584
1784516398527.847,0.00029,0.00787,0.0089
1784516398628.094,-0.00069,0.00765,0.00562
1784516398736.4941,-0.0009,0.00919,0.00241
1784516398827.804,-0.00092,0.00837,0.0058
1784516398927.9,-0.00149,0.00626,0.00805
1784516399028.424,-0.00322,0.01145,0.00913
1784516399128.791,0.00097,0.00887,0.00803
1784516399247.946,-0.00372,0.00847,0.0055
1784516399347.583,-0.00068,0.00726,0.00355
1784516399447.788,-6e-05,0.0092,0.00752
1784516399548.397,-0.00284,0.00771,0.00673
1784516399648.672,0.00145,0.00945,0.00602
1784516399748.516,-0.00151,0.00933,0.00727
1784516399847.795,-0.00268,0.00771,0.00995
1784516399947.599,-0.00024,0.00972,0.00747
1784516400047.6868,-0.00391,0.00697,0.0069
1784516400147.9138,0.00017,0.00699,0.00776
1784516400248.5151,-0.00204,0.00838,0.0066
1784516400369.901,0.00098,0.00565,0.0082
1784516400468.343,-0.00025,0.00765,0.00634
1784516400568.227,-0.002,0.0065,0.00743
1784516400668.0808,-0.00177,0.00681,0.00595
1784516400767.6533,-0.00195,0.0062,0.00786
1784516400868.18,-0.00113,0.00668,0.00741
1784516400968.134,-0.00166,0.00673,0.00655
1784516401068.4329,-0.00118,0.00765,0.00684
1784516401167.87,-0.00301,0.00554,0.00977
1784516401268.6091,0.00029,0.00647,0.00508
1784516401369.212,0.00268,0.00918,0.00742
1784516401468.344,-0.00081,0.00794,0.00746
1784516401568.351,-0.00134,0.00954,0.00669
1784516401689.087,0.00012,0.0093,0.00793
1784516401788.928,-0.00173,0.00686,0.00457
1784516401889.771,-0.00061,0.01002,0.00428
1784516401990.654,-0.00025,0.0071,0.00604
1784516402090.009,-0.00158,0.00733,0.00701
1784516402189.386,-0.00058,0.00962,0.00481
1784516402288.927,-0.00108,0.00591,0.00812
1784516402390.9277,3e-05,0.00653,0.00786
1784516402488.301,-0.00135,0.00639,0.00775
1784516402588.485,-2e-05,0.00892,0.00742
1784516402690.2102,-0.00184,0.00798,0.00829
1784516402787.8162,0.00091,0.00674,0.00753
1784516402887.852,-0.00133,0.00662,0.00605
1784516402987.798,-0.00137,0.00492,0.00603
1784516403089.067,-0.00021,0.00741,0.00702
1784516403188.404,0.00048,0.00785,0.0055
1784516403288.645,-0.00207,0.00896,0.00546
1784516403408.551,-0.00038,0.00707,0.00623
1784516403507.8882,0.00207,0.01002,0.00628
1784516403608.427,-0.00041,0.00712,0.00437
1784516403707.797,-0.00021,0.00726,0.00675
1784516403808.4622,0.00048,0.00868,0.00558
1784516403908.394,0.00105,0.00749,0.0068
1784516404008.5771,-0.00162,0.0095,0.00892
1784516404108.716,0.00099,0.00562,0.00631
1784516404207.683,-0.00249,0.00924,0.00598
1784516404307.873,-0.00156,0.00628,0.0074
1784516404408.3882,0.00056,0.00921,0.00822
1784516404508.399,-0.00066,0.00785,0.00467
1784516404608.59,-0.00068,0.01068,0.00534
1784516404708.4019,-0.00179,0.00774,0.00556
1784516404827.9521,0.0002,0.00821,0.00733
1784516404928.231,-0.00057,0.00925,0.00512
1784516405028.22,0.00025,0.00988,0.00941
1784516405129.043,-0.00282,0.0113,0.00792
1784516405228.641,-0.00227,0.00765,0.00643
1784516405328.5762,0.00015,0.00856,0.00755
1784516405428.671,-0.00154,0.00866,0.00765
1784516405528.733,-0.0002,0.00816,0.00721
1784516405628.341,0.00201,0.00853,0.00592
1784516405728.4941,0.00026,0.00878,0.0061
1784516405828.644,-0.00187,0.01095,0.00666
1784516405952.0771,0.00208,0.0076,0.00348
1784516406050.6292,-0.00225,0.01068,0.00654
1784516406161.091,0.00023,0.00771,0.00649
1784516406251.153,-0.00095,0.00663,0.00681
1784516406350.563,0.00106,0.00859,0.00653
1784516406450.288,-0.0027,0.0059,0.00617
1784516406550.308,0.0001,0.00695,0.00776
1784516406649.682,-0.00107,0.00802,0.0067
1784516406749.5872,-0.00197,0.00988,0.00516
1784516406848.4458,-0.00249,0.00931,0.0074
1784516406948.3462,-0.00046,0.0063,0.0037
1784516407049.1892,-0.00396,0.00615,0.00599
1784516407149.015,-1e-05,0.008,0.00688
1784516407248.908,0.00011,0.00873,0.0056
1784516407348.9402,-0.00208,0.01029,0.00593
1784516407448.6543,-0.00185,0.00933,0.00574
1784516407548.5781,-0.00097,0.008,0.00609
1784516407648.137,0.00014,0.00719,0.00555
1784516407748.5208,-0.00071,0.01046,0.00707
1784516407848.0378,-0.00216,0.00541,0.00735
1784516407968.134,0.00078,0.00674,0.0057
1784516408068.46,-0.00103,0.00793,0.00804
1784516408167.7693,-0.00077,0.00632,0.00757
1784516408268.5571,-0.00137,0.00739,0.00794
1784516408368.386,-0.00216,0.00881,0.00815
1784516408468.471,-0.00062,0.00854,0.00655
1784516408567.1091,-0.00248,0.00818,0.00332
1784516408668.195,0.0005,0.00891,0.00871
1784516408771.113,-0.00049,0.00826,0.00547
1784516408888.3208,-0.00097,0.00582,0.0051
1784516408988.708,-0.00152,0.0069,0.00378
1784516409088.615,0.00187,0.0067,0.00765
1784516409187.762,-0.00112,0.00727,0.00441
1784516409287.738,0.00076,0.00842,0.00428
1784516409388.037,0.00143,0.00765,0.0059
1784516409488.732,-0.00026,0.0092,0.00803
1784516409588.706,-0.00066,0.00826,0.00599
1784516409687.7341,-0.00049,0.00816,0.00453
1784516409789.94,0.00045,0.00991,0.00624
1784516409887.96,-0.00088,0.00762,0.00806
1784516409988.0938,-0.0026,0.0087,0.00469
1784516410088.0552,-0.003,0.00821,0.00552
1784516410187.811,-0.00382,0.00696,0.0048
1784516410308.0771,-0.00215,0.00806,0.0064
1784516410408.6301,-0.00153,0.00935,0.00409
1784516410508.6611,-0.00054,0.00683,0.00724
1784516410608.8179,-0.00227,0.00809,0.00669
1784516410707.9028,-0.00234,0.00762,0.00631
1784516410809.3682,-0.00086,0.00717,0.00587
1784516410912.587,-0.00197,0.00969,0.00591
1784516411027.799,-0.00084,0.00888,0.00558
1784516411129.281,-0.00218,0.00618,0.00911
1784516411227.684,0.00148,0.00676,0.00712
1784516411327.7239,0.00203,0.00624,0.00711
1784516411429.155,0.00072,0.00677,0.00821
1784516411528.6418,-0.00186,0.0061,0.00734
1784516411628.234,-0.00177,0.01063,0.00646
1784516411749.289,-0.00228,0.0088,0.00502
1784516411843.4438,-0.00142,0.00622,0.00607
1784516411948.1,-0.00324,0.01114,0.00658
1784516412047.742,0.00051,0.0048,0.00702
1784516412149.208,-0.00239,0.00894,0.00539
1784516412248.1191,-0.0022,0.0081,0.00666
1784516412348.332,-0.00074,0.00658,0.00867
1784516412449.503,-0.00082,0.00922,0.00525
1784516412547.8652,0.00159,0.01165,0.00279
1784516412647.729,1e-05,0.01051,0.00564
1784516412748.5361,-0.0014,0.00879,0.00599
1784516412848.881,7e-05,0.00978,0.00446
1784516412949.9578,-0.00035,0.00849,0.00637
1784516413068.341,-0.00141,0.00595,0.00686
1784516413168.0078,-0.00251,0.0084,0.00537
1784516413267.9412,-0.00101,0.00728,0.00523
1784516413367.871,-0.00171,0.00984,0.00385
1784516413467.762,-0.00279,0.00853,0.00594
1784516413567.8762,-0.00015,0.00659,0.00302
1784516413667.694,0.00177,0.00602,0.0054
1784516413767.715,-0.00086,0.00883,0.00694
1784516413867.989,-0.00248,0.00935,0.00753
1784516413989.687,0.00016,0.00793,0.00674
1784516414089.657,-0.00042,0.00841,0.0068
1784516414188.843,-0.00127,0.00568,0.00565
1784516414288.821,-0.00185,0.00721,0.00615
1784516414389.205,0.00097,0.00611,0.00644
1784516414489.2212,-0.00194,0.00706,0.00521
1784516414589.5469,-0.00166,0.00763,0.00603
1784516414729.1147,0.00105,0.00705,0.00718
